text,letterColor,corrAns,congruent,practice.thisRepN,practice.thisTrialN,practice.thisN,practice.thisIndex,trials.thisRepN,trials.thisTrialN,trials.thisN,trials.thisIndex,resp.keys,resp.corr,resp.rt,date,frameRate,expName,session,participant,
rojo,green,right,incong,0,0,0,3,,,,,right,1,0.733239945024,2018_Dec_08_2154,60.033411838,stroop_simple_spa,01,guille,
verde,red,left,incong,0,1,1,2,,,,,left,1,0.466321306129,2018_Dec_08_2154,60.033411838,stroop_simple_spa,01,guille,
rojo,red,left,cong,0,2,2,0,,,,,left,1,0.417363806617,2018_Dec_08_2154,60.033411838,stroop_simple_spa,01,guille,
rojo,red,left,cong,0,3,3,0,,,,,left,1,0.499727386687,2018_Dec_08_2154,60.033411838,stroop_simple_spa,01,guille,
verde,green,right,cong,1,0,4,1,,,,,right,1,0.551130099226,2018_Dec_08_2154,60.033411838,stroop_simple_spa,01,guille,
verde,green,right,cong,1,1,5,1,,,,,right,1,0.567175016236,2018_Dec_08_2154,60.033411838,stroop_simple_spa,01,guille,
verde,red,left,incong,1,2,6,2,,,,,left,1,0.650287338962,2018_Dec_08_2154,60.033411838,stroop_simple_spa,01,guille,
verde,green,right,cong,1,3,7,1,,,,,left,0,0.400488967087,2018_Dec_08_2154,60.033411838,stroop_simple_spa,01,guille,
verde,red,left,incong,2,0,8,2,,,,,left,1,0.533473667518,2018_Dec_08_2154,60.033411838,stroop_simple_spa,01,guille,
rojo,green,right,incong,2,1,9,3,,,,,right,1,0.449730407334,2018_Dec_08_2154,60.033411838,stroop_simple_spa,01,guille,
rojo,red,left,cong,2,2,10,0,,,,,left,1,0.448850644152,2018_Dec_08_2154,60.033411838,stroop_simple_spa,01,guille,
rojo,red,left,cong,2,3,11,0,,,,,left,1,0.433659059672,2018_Dec_08_2154,60.033411838,stroop_simple_spa,01,guille,
verde,red,left,incong,3,0,12,2,,,,,left,1,0.417178792042,2018_Dec_08_2154,60.033411838,stroop_simple_spa,01,guille,
rojo,green,right,incong,3,1,13,3,,,,,right,1,0.400562972918,2018_Dec_08_2154,60.033411838,stroop_simple_spa,01,guille,
verde,green,right,cong,3,2,14,1,,,,,right,1,0.350142347947,2018_Dec_08_2154,60.033411838,stroop_simple_spa,01,guille,
rojo,green,right,incong,3,3,15,3,,,,,right,1,0.368900937909,2018_Dec_08_2154,60.033411838,stroop_simple_spa,01,guille,
rojo,red,left,cong,,,,,0,0,0,0,left,1,1.16663243268,2018_Dec_08_2154,60.033411838,stroop_simple_spa,01,guille,
rojo,red,left,cong,,,,,0,1,1,0,left,1,0.500352282852,2018_Dec_08_2154,60.033411838,stroop_simple_spa,01,guille,
rojo,red,left,cong,,,,,0,2,2,0,left,1,0.349984141605,2018_Dec_08_2154,60.033411838,stroop_simple_spa,01,guille,
verde,green,right,cong,,,,,0,3,3,1,right,1,0.417283759496,2018_Dec_08_2154,60.033411838,stroop_simple_spa,01,guille,
verde,red,left,incong,,,,,1,0,4,2,left,1,0.482465526875,2018_Dec_08_2154,60.033411838,stroop_simple_spa,01,guille,
rojo,green,right,incong,,,,,1,1,5,3,right,1,0.683693041941,2018_Dec_08_2154,60.033411838,stroop_simple_spa,01,guille,
rojo,red,left,cong,,,,,1,2,6,0,left,1,0.583909395722,2018_Dec_08_2154,60.033411838,stroop_simple_spa,01,guille,
verde,green,right,cong,,,,,1,3,7,1,right,1,0.467062497166,2018_Dec_08_2154,60.033411838,stroop_simple_spa,01,guille,
rojo,red,left,cong,,,,,2,0,8,0,left,1,0.45056825905,2018_Dec_08_2154,60.033411838,stroop_simple_spa,01,guille,
verde,red,left,incong,,,,,2,1,9,2,right,0,0.467249399644,2018_Dec_08_2154,60.033411838,stroop_simple_spa,01,guille,
verde,green,right,cong,,,,,2,2,10,1,right,1,0.566750237875,2018_Dec_08_2154,60.033411838,stroop_simple_spa,01,guille,
verde,red,left,incong,,,,,2,3,11,2,right,0,0.80034586398,2018_Dec_08_2154,60.033411838,stroop_simple_spa,01,guille,
rojo,red,left,cong,,,,,3,0,12,0,right,0,0.550348129462,2018_Dec_08_2154,60.033411838,stroop_simple_spa,01,guille,
rojo,green,right,incong,,,,,3,1,13,3,right,1,0.866234840134,2018_Dec_08_2154,60.033411838,stroop_simple_spa,01,guille,
verde,red,left,incong,,,,,3,2,14,2,left,1,0.434054386737,2018_Dec_08_2154,60.033411838,stroop_simple_spa,01,guille,
verde,red,left,incong,,,,,3,3,15,2,left,1,0.433946021054,2018_Dec_08_2154,60.033411838,stroop_simple_spa,01,guille,
rojo,red,left,cong,,,,,4,0,16,0,left,1,0.351671927623,2018_Dec_08_2154,60.033411838,stroop_simple_spa,01,guille,
rojo,green,right,incong,,,,,4,1,17,3,right,1,0.467441965837,2018_Dec_08_2154,60.033411838,stroop_simple_spa,01,guille,
rojo,green,right,incong,,,,,4,2,18,3,right,1,0.31716708704,2018_Dec_08_2154,60.033411838,stroop_simple_spa,01,guille,
rojo,green,right,incong,,,,,4,3,19,3,right,1,0.350649816493,2018_Dec_08_2154,60.033411838,stroop_simple_spa,01,guille,
verde,red,left,incong,,,,,5,0,20,2,left,1,0.467493694403,2018_Dec_08_2154,60.033411838,stroop_simple_spa,01,guille,
rojo,red,left,cong,,,,,5,1,21,0,left,1,0.417571853617,2018_Dec_08_2154,60.033411838,stroop_simple_spa,01,guille,
rojo,red,left,cong,,,,,5,2,22,0,left,1,0.351998157406,2018_Dec_08_2154,60.033411838,stroop_simple_spa,01,guille,
rojo,green,right,incong,,,,,5,3,23,3,right,1,0.43376667019,2018_Dec_08_2154,60.033411838,stroop_simple_spa,01,guille,
rojo,green,right,incong,,,,,6,0,24,3,right,1,0.565456268596,2018_Dec_08_2154,60.033411838,stroop_simple_spa,01,guille,
verde,red,left,incong,,,,,6,1,25,2,left,1,0.535587364637,2018_Dec_08_2154,60.033411838,stroop_simple_spa,01,guille,
verde,green,right,cong,,,,,6,2,26,1,left,0,0.800116672457,2018_Dec_08_2154,60.033411838,stroop_simple_spa,01,guille,
verde,red,left,incong,,,,,6,3,27,2,right,0,0.850719291357,2018_Dec_08_2154,60.033411838,stroop_simple_spa,01,guille,
verde,red,left,incong,,,,,7,0,28,2,right,0,0.616952243585,2018_Dec_08_2154,60.033411838,stroop_simple_spa,01,guille,
verde,red,left,incong,,,,,7,1,29,2,left,1,0.367708537855,2018_Dec_08_2154,60.033411838,stroop_simple_spa,01,guille,
verde,green,right,cong,,,,,7,2,30,1,right,1,0.782744181481,2018_Dec_08_2154,60.033411838,stroop_simple_spa,01,guille,
rojo,green,right,incong,,,,,7,3,31,3,right,1,1.01686124662,2018_Dec_08_2154,60.033411838,stroop_simple_spa,01,guille,
verde,green,right,cong,,,,,8,0,32,1,right,1,0.483797631812,2018_Dec_08_2154,60.033411838,stroop_simple_spa,01,guille,
verde,green,right,cong,,,,,8,1,33,1,right,1,0.399289393001,2018_Dec_08_2154,60.033411838,stroop_simple_spa,01,guille,
rojo,red,left,cong,,,,,8,2,34,0,left,1,0.418059687971,2018_Dec_08_2154,60.033411838,stroop_simple_spa,01,guille,
verde,green,right,cong,,,,,8,3,35,1,right,1,0.817262992554,2018_Dec_08_2154,60.033411838,stroop_simple_spa,01,guille,
rojo,green,right,incong,,,,,9,0,36,3,right,1,0.433237301961,2018_Dec_08_2154,60.033411838,stroop_simple_spa,01,guille,
verde,green,right,cong,,,,,9,1,37,1,right,1,0.483614127563,2018_Dec_08_2154,60.033411838,stroop_simple_spa,01,guille,
verde,green,right,cong,,,,,9,2,38,1,right,1,0.400208047002,2018_Dec_08_2154,60.033411838,stroop_simple_spa,01,guille,
rojo,green,right,incong,,,,,9,3,39,3,right,1,0.400540695653,2018_Dec_08_2154,60.033411838,stroop_simple_spa,01,guille,
