text,letterColor,corrAns,congruent,practice.thisRepN,practice.thisTrialN,practice.thisN,practice.thisIndex,trials.thisRepN,trials.thisTrialN,trials.thisN,trials.thisIndex,resp.keys,resp.corr,resp.rt,date,frameRate,expName,session,participant,
azul,blue,right,cong,0,0,0,9,,,,,right,1,0.766775158208,2018_Dec_08_2233,60.0143666117,stroop_red-green-blue_spa,01,,
verde,green,down,cong,0,1,1,4,,,,,down,1,0.867473305043,2018_Dec_08_2233,60.0143666117,stroop_red-green-blue_spa,01,,
rojo,red,left,cong,0,2,2,0,,,,,left,1,0.518097068463,2018_Dec_08_2233,60.0143666117,stroop_red-green-blue_spa,01,,
azul,blue,right,cong,0,3,3,8,,,,,right,1,1.39911193004,2018_Dec_08_2233,60.0143666117,stroop_red-green-blue_spa,01,,
rojo,red,left,cong,0,4,4,1,,,,,left,1,0.517422331635,2018_Dec_08_2233,60.0143666117,stroop_red-green-blue_spa,01,,
verde,blue,right,incong,0,5,5,7,,,,,right,1,0.682006766248,2018_Dec_08_2233,60.0143666117,stroop_red-green-blue_spa,01,,
verde,green,down,cong,0,6,6,5,,,,,left,0,0.667690791561,2018_Dec_08_2233,60.0143666117,stroop_red-green-blue_spa,01,,
azul,red,left,incong,0,7,7,10,,,,,left,1,0.683849360375,2018_Dec_08_2233,60.0143666117,stroop_red-green-blue_spa,01,,
azul,red,left,incong,0,8,8,10,,,,,left,1,0.733579390129,2018_Dec_08_2233,60.0143666117,stroop_red-green-blue_spa,01,,
azul,green,down,incong,0,9,9,11,,,,,down,1,0.666921281962,2018_Dec_08_2233,60.0143666117,stroop_red-green-blue_spa,01,,
rojo,red,left,cong,0,10,10,0,,,,,left,1,0.599940719821,2018_Dec_08_2233,60.0143666117,stroop_red-green-blue_spa,01,,
rojo,green,down,incong,0,11,11,2,,,,,down,1,1.14854291583,2018_Dec_08_2233,60.0143666117,stroop_red-green-blue_spa,01,,
verde,blue,right,incong,1,0,12,7,,,,,right,1,0.6003356693,2018_Dec_08_2233,60.0143666117,stroop_red-green-blue_spa,01,,
azul,blue,right,cong,1,1,13,9,,,,,right,1,0.41744913987,2018_Dec_08_2233,60.0143666117,stroop_red-green-blue_spa,01,,
verde,red,left,incong,1,2,14,6,,,,,left,1,1.96611816767,2018_Dec_08_2233,60.0143666117,stroop_red-green-blue_spa,01,,
rojo,red,left,cong,1,3,15,1,,,,,left,1,0.633679449034,2018_Dec_08_2233,60.0143666117,stroop_red-green-blue_spa,01,,
rojo,green,down,incong,1,4,16,2,,,,,down,1,1.83278986875,2018_Dec_08_2233,60.0143666117,stroop_red-green-blue_spa,01,,
azul,blue,right,cong,1,5,17,8,,,,,right,1,0.683582033194,2018_Dec_08_2233,60.0143666117,stroop_red-green-blue_spa,01,,
verde,green,down,cong,1,6,18,4,,,,,down,1,1.93251008141,2018_Dec_08_2233,60.0143666117,stroop_red-green-blue_spa,01,,
rojo,blue,right,incong,1,7,19,3,,,,,right,1,0.700990771926,2018_Dec_08_2233,60.0143666117,stroop_red-green-blue_spa,01,,
verde,green,down,cong,1,8,20,5,,,,,down,1,0.533312062951,2018_Dec_08_2233,60.0143666117,stroop_red-green-blue_spa,01,,
azul,green,down,incong,1,9,21,11,,,,,down,1,1.1993090272,2018_Dec_08_2233,60.0143666117,stroop_red-green-blue_spa,01,,
verde,red,left,incong,1,10,22,6,,,,,left,1,0.550736660072,2018_Dec_08_2233,60.0143666117,stroop_red-green-blue_spa,01,,
rojo,blue,right,incong,1,11,23,3,,,,,right,1,0.350637733911,2018_Dec_08_2233,60.0143666117,stroop_red-green-blue_spa,01,,
verde,blue,right,incong,,,,,0,0,0,7,right,1,0.599188578937,2018_Dec_08_2233,60.0143666117,stroop_red-green-blue_spa,01,,
verde,blue,right,incong,,,,,0,1,1,7,right,1,0.466977919077,2018_Dec_08_2233,60.0143666117,stroop_red-green-blue_spa,01,,
azul,blue,right,cong,,,,,0,2,2,8,right,1,0.383447992026,2018_Dec_08_2233,60.0143666117,stroop_red-green-blue_spa,01,,
rojo,red,left,cong,,,,,0,3,3,1,left,1,0.868072525711,2018_Dec_08_2233,60.0143666117,stroop_red-green-blue_spa,01,,
verde,red,left,incong,,,,,0,4,4,6,left,1,0.533657926931,2018_Dec_08_2233,60.0143666117,stroop_red-green-blue_spa,01,,
verde,green,down,cong,,,,,0,5,5,5,down,1,0.416647535905,2018_Dec_08_2233,60.0143666117,stroop_red-green-blue_spa,01,,
verde,green,down,cong,,,,,0,6,6,5,left,0,0.483970563804,2018_Dec_08_2233,60.0143666117,stroop_red-green-blue_spa,01,,
rojo,red,left,cong,,,,,0,7,7,1,left,1,0.783542009638,2018_Dec_08_2233,60.0143666117,stroop_red-green-blue_spa,01,,
azul,green,down,incong,,,,,0,8,8,11,down,1,1.08328827536,2018_Dec_08_2233,60.0143666117,stroop_red-green-blue_spa,01,,
azul,red,left,incong,,,,,0,9,9,10,right,0,1.08294618719,2018_Dec_08_2233,60.0143666117,stroop_red-green-blue_spa,01,,
verde,red,left,incong,,,,,0,10,10,6,left,1,0.63356881787,2018_Dec_08_2233,60.0143666117,stroop_red-green-blue_spa,01,,
verde,green,down,cong,,,,,0,11,11,4,down,1,0.585676473696,2018_Dec_08_2233,60.0143666117,stroop_red-green-blue_spa,01,,
azul,blue,right,cong,,,,,1,0,12,8,right,1,0.584092522389,2018_Dec_08_2233,60.0143666117,stroop_red-green-blue_spa,01,,
verde,green,down,cong,,,,,1,1,13,4,down,1,0.517083641691,2018_Dec_08_2233,60.0143666117,stroop_red-green-blue_spa,01,,
verde,blue,right,incong,,,,,1,2,14,7,right,1,0.583704369365,2018_Dec_08_2233,60.0143666117,stroop_red-green-blue_spa,01,,
azul,blue,right,cong,,,,,1,3,15,9,down,0,0.46708817266,2018_Dec_08_2233,60.0143666117,stroop_red-green-blue_spa,01,,
azul,blue,right,cong,,,,,1,4,16,8,down,0,0.73438816813,2018_Dec_08_2233,60.0143666117,stroop_red-green-blue_spa,01,,
rojo,blue,right,incong,,,,,1,5,17,3,right,1,0.999465345638,2018_Dec_08_2233,60.0143666117,stroop_red-green-blue_spa,01,,
azul,blue,right,cong,,,,,1,6,18,8,right,1,0.384759707598,2018_Dec_08_2233,60.0143666117,stroop_red-green-blue_spa,01,,
azul,green,down,incong,,,,,1,7,19,11,down,1,0.650020389359,2018_Dec_08_2233,60.0143666117,stroop_red-green-blue_spa,01,,
rojo,red,left,cong,,,,,1,8,20,1,left,1,0.700072495507,2018_Dec_08_2233,60.0143666117,stroop_red-green-blue_spa,01,,
rojo,red,left,cong,,,,,1,9,21,1,left,1,0.58341136669,2018_Dec_08_2233,60.0143666117,stroop_red-green-blue_spa,01,,
azul,green,down,incong,,,,,1,10,22,11,down,1,0.699984896768,2018_Dec_08_2233,60.0143666117,stroop_red-green-blue_spa,01,,
verde,green,down,cong,,,,,1,11,23,4,down,1,0.600357191404,2018_Dec_08_2233,60.0143666117,stroop_red-green-blue_spa,01,,
rojo,red,left,cong,,,,,2,0,24,0,left,1,0.666927700837,2018_Dec_08_2233,60.0143666117,stroop_red-green-blue_spa,01,,
rojo,red,left,cong,,,,,2,1,25,0,left,1,0.566984337951,2018_Dec_08_2233,60.0143666117,stroop_red-green-blue_spa,01,,
rojo,green,down,incong,,,,,2,2,26,2,left,0,0.517352856776,2018_Dec_08_2233,60.0143666117,stroop_red-green-blue_spa,01,,
azul,red,left,incong,,,,,2,3,27,10,left,1,0.617005860055,2018_Dec_08_2233,60.0143666117,stroop_red-green-blue_spa,01,,
azul,blue,right,cong,,,,,2,4,28,9,right,1,0.567148585582,2018_Dec_08_2233,60.0143666117,stroop_red-green-blue_spa,01,,
verde,red,left,incong,,,,,2,5,29,6,left,1,1.38303567383,2018_Dec_08_2233,60.0143666117,stroop_red-green-blue_spa,01,,
verde,green,down,cong,,,,,2,6,30,5,down,1,0.667042485387,2018_Dec_08_2233,60.0143666117,stroop_red-green-blue_spa,01,,
rojo,green,down,incong,,,,,2,7,31,2,down,1,0.433917324917,2018_Dec_08_2233,60.0143666117,stroop_red-green-blue_spa,01,,
azul,blue,right,cong,,,,,2,8,32,9,right,1,0.782904275726,2018_Dec_08_2233,60.0143666117,stroop_red-green-blue_spa,01,,
azul,green,down,incong,,,,,2,9,33,11,left,0,1.00015480811,2018_Dec_08_2233,60.0143666117,stroop_red-green-blue_spa,01,,
verde,blue,right,incong,,,,,2,10,34,7,right,1,0.716980939724,2018_Dec_08_2233,60.0143666117,stroop_red-green-blue_spa,01,,
azul,blue,right,cong,,,,,2,11,35,8,right,1,0.55037456012,2018_Dec_08_2233,60.0143666117,stroop_red-green-blue_spa,01,,
verde,green,down,cong,,,,,3,0,36,5,down,1,1.31593202036,2018_Dec_08_2233,60.0143666117,stroop_red-green-blue_spa,01,,
rojo,red,left,cong,,,,,3,1,37,1,left,1,1.11742950567,2018_Dec_08_2233,60.0143666117,stroop_red-green-blue_spa,01,,
azul,red,left,incong,,,,,3,2,38,10,left,1,0.550342088172,2018_Dec_08_2233,60.0143666117,stroop_red-green-blue_spa,01,,
verde,red,left,incong,,,,,3,3,39,6,left,1,0.517422331639,2018_Dec_08_2233,60.0143666117,stroop_red-green-blue_spa,01,,
rojo,green,down,incong,,,,,3,4,40,2,down,1,0.450437616109,2018_Dec_08_2233,60.0143666117,stroop_red-green-blue_spa,01,,
azul,green,down,incong,,,,,3,5,41,11,down,1,0.398996767908,2018_Dec_08_2233,60.0143666117,stroop_red-green-blue_spa,01,,
azul,blue,right,cong,,,,,3,6,42,8,right,1,0.566903535666,2018_Dec_08_2233,60.0143666117,stroop_red-green-blue_spa,01,,
azul,red,left,incong,,,,,3,7,43,10,down,0,0.88332603344,2018_Dec_08_2233,60.0143666117,stroop_red-green-blue_spa,01,,
azul,green,down,incong,,,,,3,8,44,11,down,1,1.53125651327,2018_Dec_08_2233,60.0143666117,stroop_red-green-blue_spa,01,,
rojo,green,down,incong,,,,,3,9,45,2,down,1,0.48495302895,2018_Dec_08_2233,60.0143666117,stroop_red-green-blue_spa,01,,
verde,green,down,cong,,,,,3,10,46,5,down,1,0.417314343536,2018_Dec_08_2233,60.0143666117,stroop_red-green-blue_spa,01,,
azul,blue,right,cong,,,,,3,11,47,8,right,1,0.43394828654,2018_Dec_08_2233,60.0143666117,stroop_red-green-blue_spa,01,,
rojo,blue,right,incong,,,,,4,0,48,3,right,1,0.333818021176,2018_Dec_08_2233,60.0143666117,stroop_red-green-blue_spa,01,,
azul,blue,right,cong,,,,,4,1,49,8,right,1,0.367013034087,2018_Dec_08_2233,60.0143666117,stroop_red-green-blue_spa,01,,
azul,blue,right,cong,,,,,4,2,50,9,right,1,0.383803295525,2018_Dec_08_2233,60.0143666117,stroop_red-green-blue_spa,01,,
verde,blue,right,incong,,,,,4,3,51,7,right,1,0.400461026114,2018_Dec_08_2233,60.0143666117,stroop_red-green-blue_spa,01,,
rojo,green,down,incong,,,,,4,4,52,2,down,1,0.566900137441,2018_Dec_08_2233,60.0143666117,stroop_red-green-blue_spa,01,,
rojo,red,left,cong,,,,,4,5,53,0,left,1,1.01652519974,2018_Dec_08_2233,60.0143666117,stroop_red-green-blue_spa,01,,
rojo,red,left,cong,,,,,4,6,54,0,left,1,0.567415535181,2018_Dec_08_2233,60.0143666117,stroop_red-green-blue_spa,01,,
azul,blue,right,cong,,,,,4,7,55,8,down,0,0.433744015347,2018_Dec_08_2233,60.0143666117,stroop_red-green-blue_spa,01,,
verde,blue,right,incong,,,,,4,8,56,7,down,0,0.383814245368,2018_Dec_08_2233,60.0143666117,stroop_red-green-blue_spa,01,,
rojo,green,down,incong,,,,,4,9,57,2,down,1,0.733867106672,2018_Dec_08_2233,60.0143666117,stroop_red-green-blue_spa,01,,
verde,green,down,cong,,,,,4,10,58,4,down,1,0.500257132499,2018_Dec_08_2233,60.0143666117,stroop_red-green-blue_spa,01,,
verde,blue,right,incong,,,,,4,11,59,7,right,1,0.683081361101,2018_Dec_08_2233,60.0143666117,stroop_red-green-blue_spa,01,,
verde,red,left,incong,,,,,5,0,60,6,left,1,0.751365709628,2018_Dec_08_2233,60.0143666117,stroop_red-green-blue_spa,01,,
azul,green,down,incong,,,,,5,1,61,11,down,1,1.08351859963,2018_Dec_08_2233,60.0143666117,stroop_red-green-blue_spa,01,,
azul,red,left,incong,,,,,5,2,62,10,left,1,1.06696394859,2018_Dec_08_2233,60.0143666117,stroop_red-green-blue_spa,01,,
azul,green,down,incong,,,,,5,3,63,11,down,1,0.748260862998,2018_Dec_08_2233,60.0143666117,stroop_red-green-blue_spa,01,,
azul,red,left,incong,,,,,5,4,64,10,left,1,0.616906556312,2018_Dec_08_2233,60.0143666117,stroop_red-green-blue_spa,01,,
rojo,red,left,cong,,,,,5,5,65,1,left,1,0.767444231322,2018_Dec_08_2233,60.0143666117,stroop_red-green-blue_spa,01,,
verde,green,down,cong,,,,,5,6,66,5,down,1,0.583508782525,2018_Dec_08_2233,60.0143666117,stroop_red-green-blue_spa,01,,
rojo,red,left,cong,,,,,5,7,67,1,left,1,0.633312440532,2018_Dec_08_2233,60.0143666117,stroop_red-green-blue_spa,01,,
rojo,green,down,incong,,,,,5,8,68,2,left,0,0.500024920329,2018_Dec_08_2233,60.0143666117,stroop_red-green-blue_spa,01,,
rojo,blue,right,incong,,,,,5,9,69,3,right,1,0.533724758727,2018_Dec_08_2233,60.0143666117,stroop_red-green-blue_spa,01,,
rojo,red,left,cong,,,,,5,10,70,1,down,0,0.683848982797,2018_Dec_08_2233,60.0143666117,stroop_red-green-blue_spa,01,,
rojo,green,down,incong,,,,,5,11,71,2,down,1,0.583684735164,2018_Dec_08_2233,60.0143666117,stroop_red-green-blue_spa,01,,
verde,green,down,cong,,,,,6,0,72,4,down,1,0.53303982722,2018_Dec_08_2233,60.0143666117,stroop_red-green-blue_spa,01,,
rojo,blue,right,incong,,,,,6,1,73,3,right,1,0.683654151126,2018_Dec_08_2233,60.0143666117,stroop_red-green-blue_spa,01,,
verde,green,down,cong,,,,,6,2,74,5,down,1,0.800215221036,2018_Dec_08_2233,60.0143666117,stroop_red-green-blue_spa,01,,
rojo,green,down,incong,,,,,6,3,75,2,down,1,0.400246937821,2018_Dec_08_2233,60.0143666117,stroop_red-green-blue_spa,01,,
verde,green,down,cong,,,,,6,4,76,4,down,1,0.367953587775,2018_Dec_08_2233,60.0143666117,stroop_red-green-blue_spa,01,,
rojo,red,left,cong,,,,,6,5,77,0,left,1,0.533125160473,2018_Dec_08_2233,60.0143666117,stroop_red-green-blue_spa,01,,
verde,blue,right,incong,,,,,6,6,78,7,right,1,0.383693419524,2018_Dec_08_2233,60.0143666117,stroop_red-green-blue_spa,01,,
azul,blue,right,cong,,,,,6,7,79,8,right,1,0.350584495023,2018_Dec_08_2233,60.0143666117,stroop_red-green-blue_spa,01,,
verde,green,down,cong,,,,,6,8,80,4,down,1,0.482405869116,2018_Dec_08_2233,60.0143666117,stroop_red-green-blue_spa,01,,
verde,blue,right,incong,,,,,6,9,81,7,left,0,0.550686441828,2018_Dec_08_2233,60.0143666117,stroop_red-green-blue_spa,01,,
rojo,red,left,cong,,,,,6,10,82,0,left,1,0.615732280134,2018_Dec_08_2233,60.0143666117,stroop_red-green-blue_spa,01,,
rojo,red,left,cong,,,,,6,11,83,0,left,1,0.534454622342,2018_Dec_08_2233,60.0143666117,stroop_red-green-blue_spa,01,,
azul,green,down,incong,,,,,7,0,84,11,down,1,2.38235829394,2018_Dec_08_2233,60.0143666117,stroop_red-green-blue_spa,01,,
rojo,red,left,cong,,,,,7,1,85,1,left,1,0.567461222454,2018_Dec_08_2233,60.0143666117,stroop_red-green-blue_spa,01,,
rojo,green,down,incong,,,,,7,2,86,2,down,1,1.00156431711,2018_Dec_08_2233,60.0143666117,stroop_red-green-blue_spa,01,,
azul,red,left,incong,,,,,7,3,87,10,left,1,1.36592786697,2018_Dec_08_2233,60.0143666117,stroop_red-green-blue_spa,01,,
azul,blue,right,cong,,,,,7,4,88,8,right,1,0.66669775415,2018_Dec_08_2233,60.0143666117,stroop_red-green-blue_spa,01,,
rojo,red,left,cong,,,,,7,5,89,0,down,0,0.56615479301,2018_Dec_08_2233,60.0143666117,stroop_red-green-blue_spa,01,,
verde,green,down,cong,,,,,7,6,90,4,down,1,0.949876908671,2018_Dec_08_2233,60.0143666117,stroop_red-green-blue_spa,01,,
azul,red,left,incong,,,,,7,7,91,10,left,1,0.500438371266,2018_Dec_08_2233,60.0143666117,stroop_red-green-blue_spa,01,,
rojo,red,left,cong,,,,,7,8,92,0,left,1,0.533976982679,2018_Dec_08_2233,60.0143666117,stroop_red-green-blue_spa,01,,
azul,green,down,incong,,,,,7,9,93,11,down,1,0.499951669663,2018_Dec_08_2233,60.0143666117,stroop_red-green-blue_spa,01,,
verde,blue,right,incong,,,,,7,10,94,7,right,1,0.517510307956,2018_Dec_08_2233,60.0143666117,stroop_red-green-blue_spa,01,,
verde,green,down,cong,,,,,7,11,95,5,down,1,0.716989624081,2018_Dec_08_2233,60.0143666117,stroop_red-green-blue_spa,01,,
verde,red,left,incong,,,,,8,0,96,6,left,1,0.617022473609,2018_Dec_08_2233,60.0143666117,stroop_red-green-blue_spa,01,,
rojo,blue,right,incong,,,,,8,1,97,3,right,1,0.450913745448,2018_Dec_08_2233,60.0143666117,stroop_red-green-blue_spa,01,,
rojo,red,left,cong,,,,,8,2,98,0,down,0,0.532298258597,2018_Dec_08_2233,60.0143666117,stroop_red-green-blue_spa,01,,
azul,blue,right,cong,,,,,8,3,99,8,down,0,0.46803590038,2018_Dec_08_2233,60.0143666117,stroop_red-green-blue_spa,01,,
rojo,blue,right,incong,,,,,8,4,100,3,right,1,0.38452145414,2018_Dec_08_2233,60.0143666117,stroop_red-green-blue_spa,01,,
verde,green,down,cong,,,,,8,5,101,4,down,1,0.633559378351,2018_Dec_08_2233,60.0143666117,stroop_red-green-blue_spa,01,,
azul,red,left,incong,,,,,8,6,102,10,left,1,0.53351369108,2018_Dec_08_2233,60.0143666117,stroop_red-green-blue_spa,01,,
azul,green,down,incong,,,,,8,7,103,11,down,1,0.850420624971,2018_Dec_08_2233,60.0143666117,stroop_red-green-blue_spa,01,,
verde,green,down,cong,,,,,8,8,104,5,down,1,0.567232786092,2018_Dec_08_2233,60.0143666117,stroop_red-green-blue_spa,01,,
verde,green,down,cong,,,,,8,9,105,4,down,1,0.417359275649,2018_Dec_08_2233,60.0143666117,stroop_red-green-blue_spa,01,,
verde,red,left,incong,,,,,8,10,106,6,left,1,0.783759496157,2018_Dec_08_2233,60.0143666117,stroop_red-green-blue_spa,01,,
verde,green,down,cong,,,,,8,11,107,5,left,0,0.583664723385,2018_Dec_08_2233,60.0143666117,stroop_red-green-blue_spa,01,,
rojo,blue,right,incong,,,,,9,0,108,3,right,1,0.581882542177,2018_Dec_08_2233,60.0143666117,stroop_red-green-blue_spa,01,,
verde,blue,right,incong,,,,,9,1,109,7,right,1,0.416622993158,2018_Dec_08_2233,60.0143666117,stroop_red-green-blue_spa,01,,
azul,red,left,incong,,,,,9,2,110,10,left,1,0.882946942351,2018_Dec_08_2233,60.0143666117,stroop_red-green-blue_spa,01,,
rojo,blue,right,incong,,,,,9,3,111,3,right,1,0.633994728974,2018_Dec_08_2233,60.0143666117,stroop_red-green-blue_spa,01,,
rojo,blue,right,incong,,,,,9,4,112,3,right,1,0.45056825905,2018_Dec_08_2233,60.0143666117,stroop_red-green-blue_spa,01,,
verde,red,left,incong,,,,,9,5,113,6,left,1,0.815962226821,2018_Dec_08_2233,60.0143666117,stroop_red-green-blue_spa,01,,
rojo,red,left,cong,,,,,9,6,114,1,left,1,0.616936385191,2018_Dec_08_2233,60.0143666117,stroop_red-green-blue_spa,01,,
azul,blue,right,cong,,,,,9,7,115,9,down,0,0.434871471509,2018_Dec_08_2233,60.0143666117,stroop_red-green-blue_spa,01,,
azul,blue,right,cong,,,,,9,8,116,9,right,1,0.334387412968,2018_Dec_08_2233,60.0143666117,stroop_red-green-blue_spa,01,,
rojo,red,left,cong,,,,,9,9,117,1,left,1,1.14914515715,2018_Dec_08_2233,60.0143666117,stroop_red-green-blue_spa,01,,
rojo,red,left,cong,,,,,9,10,118,1,left,1,0.533833124406,2018_Dec_08_2233,60.0143666117,stroop_red-green-blue_spa,01,,
verde,green,down,cong,,,,,9,11,119,4,down,1,0.533654528703,2018_Dec_08_2233,60.0143666117,stroop_red-green-blue_spa,01,,
verde,red,left,incong,,,,,10,0,120,6,left,1,0.767039087161,2018_Dec_08_2233,60.0143666117,stroop_red-green-blue_spa,01,,
azul,blue,right,cong,,,,,10,1,121,9,right,1,0.750274501217,2018_Dec_08_2233,60.0143666117,stroop_red-green-blue_spa,01,,
rojo,red,left,cong,,,,,10,2,122,0,left,1,1.06706627298,2018_Dec_08_2233,60.0143666117,stroop_red-green-blue_spa,01,,
verde,red,left,incong,,,,,10,3,123,6,left,1,0.617356632585,2018_Dec_08_2233,60.0143666117,stroop_red-green-blue_spa,01,,
verde,blue,right,incong,,,,,10,4,124,7,right,1,0.55058864841,2018_Dec_08_2233,60.0143666117,stroop_red-green-blue_spa,01,,
azul,blue,right,cong,,,,,10,5,125,9,right,1,0.417050037006,2018_Dec_08_2233,60.0143666117,stroop_red-green-blue_spa,01,,
rojo,blue,right,incong,,,,,10,6,126,3,right,1,0.382777786166,2018_Dec_08_2233,60.0143666117,stroop_red-green-blue_spa,01,,
verde,green,down,cong,,,,,10,7,127,5,down,1,0.583916192172,2018_Dec_08_2233,60.0143666117,stroop_red-green-blue_spa,01,,
verde,red,left,incong,,,,,10,8,128,6,left,1,0.600053238886,2018_Dec_08_2233,60.0143666117,stroop_red-green-blue_spa,01,,
verde,red,left,incong,,,,,10,9,129,6,left,1,0.517094591534,2018_Dec_08_2233,60.0143666117,stroop_red-green-blue_spa,01,,
azul,blue,right,cong,,,,,10,10,130,9,right,1,1.28199241818,2018_Dec_08_2233,60.0143666117,stroop_red-green-blue_spa,01,,
azul,blue,right,cong,,,,,10,11,131,9,right,1,0.433809714399,2018_Dec_08_2233,60.0143666117,stroop_red-green-blue_spa,01,,
rojo,red,left,cong,,,,,11,0,132,0,down,0,0.750157828759,2018_Dec_08_2233,60.0143666117,stroop_red-green-blue_spa,01,,
rojo,blue,right,incong,,,,,11,1,133,3,right,1,0.683446859282,2018_Dec_08_2233,60.0143666117,stroop_red-green-blue_spa,01,,
azul,red,left,incong,,,,,11,2,134,10,left,1,0.651509945477,2018_Dec_08_2233,60.0143666117,stroop_red-green-blue_spa,01,,
rojo,green,down,incong,,,,,11,3,135,2,down,1,0.684637371436,2018_Dec_08_2233,60.0143666117,stroop_red-green-blue_spa,01,,
azul,red,left,incong,,,,,11,4,136,10,left,1,0.66679781305,2018_Dec_08_2233,60.0143666117,stroop_red-green-blue_spa,01,,
rojo,blue,right,incong,,,,,11,5,137,3,right,1,0.566885411787,2018_Dec_08_2233,60.0143666117,stroop_red-green-blue_spa,01,,
azul,green,down,incong,,,,,11,6,138,11,down,1,0.683488393166,2018_Dec_08_2233,60.0143666117,stroop_red-green-blue_spa,01,,
verde,green,down,cong,,,,,11,7,139,5,down,1,0.666420232286,2018_Dec_08_2233,60.0143666117,stroop_red-green-blue_spa,01,,
verde,green,down,cong,,,,,11,8,140,4,down,1,0.533633006598,2018_Dec_08_2233,60.0143666117,stroop_red-green-blue_spa,01,,
azul,blue,right,cong,,,,,11,9,141,9,right,1,0.53253613448,2018_Dec_08_2233,60.0143666117,stroop_red-green-blue_spa,01,,
azul,blue,right,cong,,,,,11,10,142,9,right,1,0.650066076632,2018_Dec_08_2233,60.0143666117,stroop_red-green-blue_spa,01,,
rojo,green,down,incong,,,,,11,11,143,2,left,0,0.666734001901,2018_Dec_08_2233,60.0143666117,stroop_red-green-blue_spa,01,,
